{
	"resourceType": "MedicationRequest",
	"id": "order-ref-contained",
	"status": "active",
	"intent": "proposal",
	"contained": [
		{
			"resourceType": "Medication",
			"id": "med",
			"code": {
				"text": "Red Pill"
			},
			"manufacturer": {
				"reference": "#morpheus"
			}
		},
		{
			"resourceType": "Organization",
			"id": "morpheus",
			"name": "Morpheus Co."
		}
	],
	"medicationReference": {
		"reference": "#med"
	},
	"subject": {
		"reference": "Patient/0"
	}
}
